Folder: eds-classification/MATLAB

Note: MATLAB/DOCUMENTATION.md
## Table of Contents ##

- [Features](#features)
- [Documentation](#documentation)
  - [List of Functions](#list-of-functions)
- [Acknowledgements](#acknowledgements)
- [Copyrights](#copyrights)


## Features ##
<big>Key feature:</big>
- The main draw for this repository is that users with energy dispersive spectrometry (EDS) data can programmatically identify mineral species in their data from a choice of 3 peer-reviewed sorting scheme algorithms and a novel machine learning classifier.

<big>Users can also:</big>

- Import EDS spectral data from an EMSA (.msa) file as a MATLAB <small>`table`</small>.

- Quickly plot EDS spectra and identify the primary elements based on their characteristic x-ray wavelengths.

- Extract the metadata from SEM tagged image files (TIFs), including the x- and y-resolution, working distance, acceleration voltage, and more.

- Calculate the pixel size of an SEM tagged image file (TIF). 

- Calculate the convergence angle for an SEM image.



## **Documentation** ##

All of the functions in this software package have documentation hard-coded into their programming. Simply run the command `help` followed by the name of any of the following functions and it will print the documentation for that function in the command window. Alternatively, you can replace the `help` command with `doc` and it will open the documentation in a separate window. For example:

```matlab
% Print documentation 
help function

% Open documenation
doc function
```

### List of Functions ###

  - [`eds_classification()`](#eds_classification) - EDS mineral classification
  - [`weber_classification()`](#weber_classification) -  Machine learning mineral classification model for EDS data
  - [`donarummo_classification()`](#donarummo_classification) - Mineral classification scheme from Donarummo et al. (2003)
  - [`kandler_classification()`](#kandler_classification) - Mineral classification scheme from Kandler et al. (2011)
  - [`panta_classifiction()`](#panta_classification) - Mineral classification scheme from Panta et al. (2023)
  - [`read_msa()`](#read_msa) - Import EDS spectral data from EMSA (.msa) files
  - [`xray_plot()`](#xray_plot) - Plot EDS spectra
  - [`xray_peak_label()`](#xray_peak_label) - Identify characteristic x-ray peaks in spectra
  - [`get_sem_metadata()`](#get_tif_metadata) - Extract metadata from SEM images (.tif or .tiff)
  - [`sem_pixel_size()`](#sem_pixel_size) - Calculate pixel size in a SEM image
  - [`convergence_angle()`](#convergence_angle) - Calculate the convergence angle for an SEM image


## eds_classification ##
EDS mineral dust classification

<big>**Syntax**</big>

`eds_classification(data)`

`eds_classification(data,Name=Value)`

`classes = eds_classification(___)`

<big>**Description**</big>

Four algorithms for mineral classification in a single function. Simply pass a table of EDS data (either net intensity or atom percent, depending on the algorithm you want) as the first input argument and then use the `Alg

Note: README.md
# EDS Classification for MATLAB
**Functions for working with SEM-EDS data in MATLAB, including different algorithms for performing mineral classification.**

This repository includes several functions designed to quickly classify minerals from data collected using a scanning electron microscope (SEM) with an energy dispersive spectrometry (EDS) detector. The <small>`weber_classification()`</small> algorithm is a novel machine learning classifier trained on 18 mineral standards with an validation accuracy exceeding 99%. In addition, three alternative classification algorithms have been trasncribed into viable MATLAB code from the literature to compare and help finalize the results. (See the **[online documentation](https://github.com/weber1158/eds-classification-for-matlab/blob/main/MATLAB/docs/DOCUMENTATION.md)** for the <small>`donarummo_classification()`</small> [1], <small>`kandler_classification()`</small> [2], and <small>`panta_classification()`</small> [3] functions for details). The Donarummo, Kandler, and Panta algorithms have also been transcribed into Julia code for those without a MATLAB license.

Moreover, this repository includes MATLAB functions for importing EDS x-ray spectral data (<small>`read_msa()`</small>) and visualizing the data (<small>`xray_plot()`</small>). Users may also import the metadata from SEM micrographs with the <small>`get_sem_metadata()`</small> function, and much more.

## Citation
Weber, Austin M. (2024) EDS Classification for MATLAB. V1.2.0 [Software]. Github. https://github.com/weber1158/eds-classification-for-matlab

For BibTeX:
```tex
@software{weber2024eds
   author = {Weber, Austin M.}, 
   title = {EDS Classification for MATLAB}, 
   year = 2024, 
   publisher = {GitHub}, 
   version = {1.2.0}, 
   url = {https://github.com/weber1158/eds-classification-for-matlab} 
}
```

## References
**[1]** Donarummo, J., Ram, M., & Stoermer, E. F. (2003). Possible deposit of soil dust from the 1930’s U.S. dust bowl identified in Greenland ice. Geophysical Research Letters, 30(6). https://doi.org/10.1029/2002GL016641

**[2]** Kandler, K., Lieke, K., Benker, N., Emmel, C., Küpper, M., Müller-Ebert, D., Ebert, M., Scheuvens, D., Schladitz, A., Schütz, L., & Weinbruch, S. (2011). Electron microscopy of particles collected at Praia, Cape Verde, during the Saharan Mineral Dust Experiment: Particle chemistry, shape, mixing state and complex refractive index. Tellus B, 63(4), 475–496. https://doi.org/10.1111/j.1600-0889.2011.00550.x

**[3]**  Panta, A., Kandler, K., Alastuey, A., González-Flórez, C., 
González-Romero, A., Klose, M., Querol, X., Reche, C., Yus-Díez, J., & Pérez García-Pando, C. (2023). Insights into the single-particle composition, size, mixing state, and aspect ratio of freshly emitted mineral dust from field measurements in the Moroccan Sahara using electron microscopy. Atmospheric Chemistry and Physics, 23(6), 3861–3885. https://doi.org/10.5194/acp-23-3861-2023

File: file1.msa
#FORMAT      : EMSA/MAS SPECTRAL DATA FILE
#VERSION     : 1.0
#TITLE       : Bruker AXS spectrum
#DATE        : 01-DEC-2022
#TIME        : 09:24
#OWNER       : Bruker AXS
#NPOINTS     : 4096.0
#NCOLUMNS    : 4.0
#XUNITS      : keV
#YUNITS      : Counts
#DATATYPE    : Y
#XPERCHAN    : 0.0050000
#OFFSET      : -0.4783000
#SIGNALTYPE  : EDS
#CHOFFSET    : 96
#BEAMKV   -kV: 15.0
#ELEVANGLE   : 35.0
#AZIMANGLE   : 45.0
#XTILTSTGE   : 0.0
#YTILTSTGE   : 0.0
#LIVETIME  -s: 25.917
#REALTIME  -s: 26.977
##RTDET      : XFlash 5030
#EDSDET      :
#TDEADLYR -cm: 0.000003
#TACTLYR  -cm: 0.045
##FANO       : 0.1068232
##MNFWHM -keV: 0.1328904
##IDENT      : O,Fe,Na,Al,Si,Ca,Mg,Ti,K,P,S
#SPECTRUM    :
         0.0,         0.0,         0.0,         0.0,
         0.0,         0.0,         0.0,         0.0,
         0.0,         0.0,         0.0,         0.0,
         0.0,         0.0,         0.0,         1.0,
      3098.0,      2988.0,      2736.0,      2517.0,
         0.0,         0.0,         0.0,         1.0,
        80.0,        89.0,        99.0,       111.0,
        44.0,        50.0,        38.0,        33.0,
      1258.0,      1429.0,      1726.0,      2047.0,
       137.0,       103.0,        78.0,        60.0,
        64.0,        59.0,        54.0,        51.0,
        69.0,        65.0,        84.0,        69.0,
       126.0,       132.0,       192.0,       171.0,
       607.0,       487.0,       441.0,       348.0,
        84.0,       101.0,        87.0,        81.0,
       100.0,       117.0,       100.0,       105.0,
       906.0,      1019.0,      1200.0,      1324.0,
       439.0,       366.0,       286.0,       248.0,
      1166.0,      1400.0,      1696.0,      1994.0,
      1371.0,      1139.0,       948.0,       812.0,
        92.0,        82.0,        62.0,        61.0,
        60.0,        66.0,        65.0,        58.0,
        87.0,        85.0,        93.0,        81.0,
        56.0,        50.0,        63.0,        60.0,
        58.0,        50.0,        53.0,        55.0,
        63.0,        58.0,        50.0,        47.0,
        57.0,        52.0,        48.0,        53.0,
        48.0,        64.0,        62.0,        66.0,
        70.0,        63.0,        68.0,        49.0,
        52.0,        53.0,        68.0,        59.0,
        49.0,        47.0,        57.0,        42.0,
        44.0,        40.0,        36.0,        47.0,
        47.0,        45.0,        47.0,        34.0,
        41.0,        42.0,        41.0,        41.0,
        71.0,        67.0,        83.0,        99.0,
       184.0,       180.0,       165.0,       146.0,
        37.0,        33.0,        40.0,        32.0,
        38.0,        47.0,        53.0,        47.0,
        39.0,        35.0,        29.0,        32.0,
        32.0,        35.0,        33.0,        20.0,
        27.0,        30.0,        38.0,        42.0,
        26.0,        26.0,        20.0,        25.0,
        30.0,        36.0,        34.0,        31.0,
        23.0,        22.0,        28.0,        28.0,
        23.0,        23.0,        22.0,        22.0,
        20.0,        25.0,        25.0,        20.0,
        21.0,        21.0,        22.0,        22.0,
        15.0,        25.0,        23.0,        19.0,
        23.0,        20.0,        21.0,        19.0,
        17.0,        21.0,        19.0,        19.0,
        19.0,        21.0,        20.0,        17.0,
        18.0,        18.0,        18.0,        14.0,
        15.0,        23.0,        24.0,        21.0,
        23.0,        19.0,        24.0,        22.0,
        23.0,        17.0,        15.0,        13.0,
        22.0,        13.0,        15.0,        20.0,
        15.0,        11.0,        13.0,        14.0,
        28.0,        16.0,        27.0,        27.0,
        26.0,        18.0,        26.0,        22.0,
        21.0,        15.0,        16.0,        14.0,
        15.0,        13.0,        11.0,        18.0,
         9.0,        10.0,        17.0,        13.0,
        19.0,        17.0,        17.0,        13.0,
         8.0,        13.0,        12.0,        13.0,
        12.0,         9.0,        12.0,        18.0,
        10.0,         8.0,        10.0,         8.0,
        12.0,        14.0,        14.0,        19.0,
        10.0,         6.0,        12.0,        14.0,
        13.0,        16.0,        15.0,        10.0,
        10.0,        13.0,         5.0,        13.0,
        12.0,         8.0,        10.0,         8.0,
        14.0,         6.0,         9.0,        13.0,
        12.0,        13.0,        10.0,         6.0,
        12.0,        12.0,        17.0,         8.0,
        11.0,         4.0,        11.0,        12.0,
         9.0,        11.0,        15.0,         9.0,
         6.0,        10.0,         6.0,         9.0,
        12.0,        10.0,        10.0,         3.0,
         9.0,         6.0,         4.0,         6.0,
         8.0,         6.0,        10.0,         7.0,
         7.0,         7.0,         6.0,         4.0,
         8.0,        13.0,         8.0,         9.0,
         4.0,         8.0,         7.0,         9.0,
         9.0,         6.0,         9.0,         6.0,
        11.0,         7.0,         5.0,         7.0,
         8.0,         9.0,         2.0,         9.0,
         5.0,        11.0,         6.0,        11.0,
         3.0,         8.0,         9.0,         4.0,
         8.0,         3.0,         8.0,         5.0,
         5.0,         7.0,         4.0,         5.0,
         4.0,         6.0,         7.0,         7.0,
         8.0,         5.0,         6.0,         4.0,
         3.0,         6.0,         3.0,         9.0,
         5.0,         3.0,         5.0,         4.0,
         3.0,         4.0,         3.0,         6.0,
         4.0,         2.0,         7.0,         6.0,
         2.0,         4.0,         4.0,         5.0,
         4.0,         4.0,         6.0,         4.0,
         2.0,         9.0,         5.0,         5.0,
         4.0,         7.0,         5.0,         5.0,
         7.0,         3.0,         5.0,         6.0,
         4.0,         5.0,         6.0,         4.0,
         4.0,         0.0,         3.0,         7.0,
         3.0,         4.0,         3.0,         3.0,
         5.0,         3.0,         6.0,         6.0,
         3.0,         3.0,         2.0,         3.0,
         7.0,         5.0,         3.0,         6.0,
         3.0,         2.0,         3.0,         3.0,
         2.0,         1.0,         2.0,         3.0,
         2.0,         1.0,         2.0,         2.0,
         5.0,         3.0,         1.0,         1.0,
         2.0,         0.0,         2.0,         0.0,
         1.0,         2.0,         2.0,         1.0,
         0.0,         4.0,         1.0,         3.0,
         0.0,         0.0,         2.0,         1.0,
         0.0,         1.0,         3.0,         2.0,
         0.0,         1.0,         1.0,         3.0,
         2.0,         2.0,         1.0,         0.0,
         0.0,         3.0,         2.0,         0.0,
         2.0,         3.0,         0.0,         2.0,
         2.0,         3.0,         3.0,         0.0,
         2.0,         0.0,         1.0,         0.0,
         1.0,         0.0,         1.0,         2.0,
         2.0,         1.0,         2.0,         2.0,
         0.0,         1.0,         0.0,         0.0,
         0.0,         0.0,         0.0,         1.0,
         0.0,         0.0,         0.0,         0.0,
         0.0,         0.0,         0.0,         0.0,
         0.0,         0.0,         1.0,         0.0,
         0.0,         0.0,         0.0,         0.0,
         0.0,         0.0,         0.0,         0.0,
         0.0,         0.0,         0.0,         0.0,
         0.0,         0.0,         0.0,         0.0,
         0.0,         0.0,         0.0,         0.0,
         0.0,         0.0,         0.0,         0.0,
         0.0,         0.0,         0.0,         0.0,
         0.0,         0.0,         0.0,         0.0,
         0.0,         0.0,         0.0,         0.0,
         0.0,         0.0,         0.0,         0.0,
         0.0,         0.0,         0.0,         0.0,
         0.0,         0.0,         0.0,         0.0,
         0.0,         0.0,         0.0,         0.0,
         0.0,         0.0,         0.0,         0.0,
         0.0,         0.0,         0.0,         0.0,
         0.0,         0.0,         0.0,         0.0,
         0.0,         0.0,         0.0,         0.0,
         0.0,         0.0,         0.0,         0.0,
         0.0,         0.0,         0.0,         0.0,
         0.0,         0.0,         0.0,         0.0,
         0.0,         0.0,         0.0,         0.0,
         0.0,         0.0,         0.0,         0.0,
         0.0,         0.0,         0.0,         0.0,
         0.0,         0.0,         0.0,         0.0,
         0.0,         0.0,         0.0,         0.0,
         0.0,         0.0,         0.0,         0.0,
         0.0,         0.0,         0.0,         0.0,
         0.0,         0.0,         0.0,         0.0,
         0.0,         0.0,         0.0,         0.0,
         0.0,         0.0,         0.0,         0.0,
         0.0,         0.0,         0.0,         0.0,
         0.0,         0.0,         0.0,         0.0,
         0.0,         0.0,         0.0,         0.0,
         0.0,         0.0,         0.0,         0.0,
         0.0,         0.0,         0.0,         0.0,
         0.0,         0.0,         0.0,         0.0,
         0.0,         0.0,         0.0,         0.0,
         0.0,         0.0,         0.0,         0.0,
         0.0,         0.0,         0.0,         0.0,
         0.0,         0.0,         0.0,         0.0,
         0.0,         0.0,         0.0,         0.0,
         0.0,         0.0,         0.0,         0.0,
         0.0,         0.0,         0.0,         0.0,
#ENDOFDATA   :