Folder: eds-classification/MATLAB/Examples/example_spectra (part 3)

File: sphene.msa
#FORMAT      : EMSA/MAS SPECTRAL DATA FILE
#VERSION     : 1.0
#TITLE       : MineralStandards | Spn | Area 2 | Selected Area 1
#DATE        : 09-Jul-2024
#TIME        : 11:31
#OWNER       : EDAX APEX /ApexData
#NPOINTS     : 4096
#NCOLUMNS    : 1
#XUNITS      : Energy (EV)
#YUNITS      : Intensity
#DATATYPE    : XY
#XPERCHAN    : 10.000
#OFFSET      : 0.0
#CHOFFSET    : 0.0
#SIGNALTYPE  : EDS
#XLABEL      : X-RAY Energy
#YLABEL      : X-RAY Intensity
#BEAMKV   -kV: 15.0
#LIVETIME  -s: 10.0
#REALTIME  -s: 0.0
#ELEVANGLE-dg: 35.0
#AZIMANGLE-dg: 0.0
#TBEWIND  -cm: 0.000000
#TDEADLYR -cm: 0.030
#TACTYLR  -cm: 0.1
#COMMENT     : Converted by EDAX.APEX.V2.0 February 2020
##FILENAME       : \\naotvcsocc.coeit.osu.edu\CEMAS_Instrument\weber.1158\PhD\20240709\MineralStandards\Spn\Area 2\Selected Area 1_1.spc
##AmpTime (usec) : 0.96
##FPGA Version   : 0
##RESO (MnKa)    : 126.2
##EDAX Detector  : Octane Elect Super
##Analyzer Type  : DPP4
##Tilt Angle     : 0.0
##TakeOff Angle  : 36.8
##Elements       : 6,8,9,13,14,20,22,26
#SPECTRUM    : Spectral Data Starts Here
0.00,        0.0
140.00,        197.0
280.00,        4705.0
420.00,        1381.0
560.00,        4641.0
700.00,        865.0
840.00,        668.0
980.00,        699.0
1120.00,        851.0
1260.00,        1363.0
1400.00,        1342.0
1540.00,        2862.0
1680.00,        7835.0
1820.00,        4830.0
1960.00,        1541.0
2100.00,        1153.0
2240.00,        1330.0
2380.00,        1034.0
2520.00,        962.0
2660.00,        1001.0
2800.00,        1026.0
2940.00,        926.0
3080.00,        981.0
3220.00,        952.0
3360.00,        908.0
3500.00,        1099.0
3640.00,        11556.0
3780.00,        5002.0
3920.00,        1261.0
4060.00,        2770.0
4200.00,        723.0
4340.00,        771.0
4480.00,        11689.0
4620.00,        1954.0
4760.00,        676.0
4900.00,        2096.0
5040.00,        876.0
5180.00,        613.0
5320.00,        638.0
5460.00,        672.0
5600.00,        524.0
5740.00,        471.0
5880.00,        430.0
6020.00,        452.0
6160.00,        507.0
6300.00,        513.0
6440.00,        703.0
6580.00,        383.0
6720.00,        388.0
6860.00,        357.0
7000.00,        321.0
7140.00,        304.0
7280.00,        298.0
7420.00,        353.0
7560.00,        291.0
7700.00,        290.0
7840.00,        237.0
7980.00,        241.0
8120.00,        247.0
8260.00,        269.0
8400.00,        233.0
8540.00,        220.0
8680.00,        221.0
8820.00,        212.0
8960.00,        198.0
9100.00,        202.0
9240.00,        185.0
9380.00,        172.0
9520.00,        169.0
9660.00,        146.0
9800.00,        147.0
9940.00,        133.0
10080.00,        131.0
10220.00,        132.0
10360.00,        148.0
10500.00,        117.0
10640.00,        107.0
10780.00,        94.0
10920.00,        91.0
11060.00,        95.0
11200.00,        97.0
11340.00,        81.0
11480.00,        79.0
11620.00,        84.0
11760.00,        87.0
11900.00,        59.0
12040.00,        68.0
12180.00,        55.0
12320.00,        52.0
12460.00,        44.0
12600.00,        52.0
12740.00,        41.0
12880.00,        36.0
13020.00,        36.0
13160.00,        37.0
13300.00,        37.0
13440.00,        34.0
13580.00,        25.0
13720.00,        24.0
13860.00,        25.0
14000.00,        18.0
14140.00,        14.0
14280.00,        17.0
14420.00,        8.0
14560.00,        5.0
14700.00,        9.0
14840.00,        3.0
14980.00,        5.0
15120.00,        1.0
15260.00,        6.0
15400.00,        1.0
15540.00,        5.0
15680.00,        3.0
15820.00,        1.0
15960.00,        0.0
16100.00,        3.0
16240.00,        1.0
16380.00,        3.0
16520.00,        2.0
16660.00,        1.0
16800.00,        1.0
16940.00,        2.0
17080.00,        1.0
17220.00,        2.0
17360.00,        0.0
17500.00,        0.0
17640.00,        0.0
17780.00,        3.0
17920.00,        1.0
18060.00,        1.0
18200.00,        2.0
18340.00,        3.0
18480.00,        4.0
18620.00,        0.0
18760.00,        0.0
18900.00,        2.0
19040.00,        1.0
19180.00,        0.0
19320.00,        0.0
19460.00,        0.0
19600.00,        0.0
19740.00,        0.0
19880.00,        1.0
20020.00,        0.0
20160.00,        0.0
20300.00,        1.0
20440.00,        0.0
20580.00,        0.0
20720.00,        0.0
20860.00,        0.0
21000.00,        0.0
21140.00,        0.0
21280.00,        0.0
21420.00,        0.0
21560.00,        0.0
21700.00,        0.0
21840.00,        0.0
21980.00,        0.0
22120.00,        0.0
22260.00,        0.0
22400.00,        1.0
22540.00,        0.0
22680.00,        0.0
22820.00,        0.0
22960.00,        0.0
23100.00,        0.0
23240.00,        0.0
23380.00,        0.0
23520.00,        0.0
23660.00,        0.0
23800.00,        0.0
23940.00,        0.0
24080.00,        0.0
24220.00,        0.0
24360.00,        0.0
24500.00,        0.0
24640.00,        0.0
24780.00,        0.0
24920.00,        0.0
25060.00,        0.0
25200.00,        0.0
25340.00,        0.0
25480.00,        0.0
25620.00,        0.0
25760.00,        0.0
25900.00,        0.0
26040.00,        0.0
26180.00,        0.0
26320.00,        0.0
26460.00,        0.0
26600.00,        0.0
26740.00,        0.0
26880.00,        0.0
27020.00,        0.0
27160.00,        0.0
27300.00,        0.0
27440.00,        0.0
27580.00,        0.0
27720.00,        0.0
27860.00,        0.0
28000.00,        0.0
28140.00,        0.0
28280.00,        0.0
28420.00,        0.0
28560.00,        0.0
28700.00,        0.0
28840.00,        0.0
28980.00,        0.0
29120.00,        0.0
29260.00,        0.0
29400.00,        0.0
29540.00,        0.0
29680.00,        0.0
29820.00,        0.0
29960.00,        0.0
30100.00,        0.0
30240.00,        0.0
30380.00,        0.0
30520.00,        0.0
30660.00,        0.0
30800.00,        0.0
30940.00,        0.0
31080.00,        0.0
31220.00,        0.0
31360.00,        0.0
31500.00,        0.0
31640.00,        0.0
31780.00,        0.0
31920.00,        0.0
32060.00,        0.0
32200.00,        0.0
32340.00,        0.0
32480.00,        0.0
32620.00,        0.0
32760.00,        0.0
32900.00,        0.0
33040.00,        0.0
33180.00,        0.0
33320.00,        0.0
33460.00,        0.0
33600.00,        0.0
33740.00,        0.0
33880.00,        0.0
34020.00,        0.0
34160.00,        0.0
34300.00,        0.0
34440.00,        0.0
34580.00,        0.0
34720.00,        0.0
34860.00,        0.0
35000.00,        0.0
35140.00,        0.0
35280.00,        0.0
35420.00,        0.0
35560.00,        0.0
35700.00,        0.0
35840.00,        0.0
35980.00,        0.0
36120.00,        0.0
36260.00,        0.0
36400.00,        0.0
36540.00,        0.0
36680.00,        0.0
36820.00,        0.0
36960.00,        0.0
37100.00,        0.0
37240.00,        0.0
37380.00,        0.0
37520.00,        0.0
37660.00,        0.0
37800.00,        0.0
37940.00,        0.0
38080.00,        0.0
38220.00,        0.0
38360.00,        0.0
38500.00,        0.0
38640.00,        0.0
38780.00,        0.0
38920.00,        0.0
39060.00,        0.0
39200.00,        0.0
39340.00,        0.0
39480.00,        0.0
39620.00,        0.0
39760.00,        0.0
39900.00,        0.0
40040.00,        0.0
40180.00,        0.0
40320.00,        0.0
40460.00,        0.0
40600.00,        0.0
40740.00,        0.0
40880.00,        0.0
40950.00,        0.0
#ENDOFDATA   :

File: vermiculite.msa
#FORMAT      : EMSA/MAS SPECTRAL DATA FILE
#VERSION     : 1.0
#TITLE       : MineralStandards | Vrm | Area 2 | Selected Area 1
#DATE        : 20-May-2024
#TIME        : 14:58
#OWNER       : EDAX APEX /ApexData
#NPOINTS     : 4096
#NCOLUMNS    : 1
#XUNITS      : Energy (EV)
#YUNITS      : Intensity
#DATATYPE    : XY
#XPERCHAN    : 10.000
#OFFSET      : 0.0
#CHOFFSET    : 0.0
#SIGNALTYPE  : EDS
#XLABEL      : X-RAY Energy
#YLABEL      : X-RAY Intensity
#BEAMKV   -kV: 15.0
#LIVETIME  -s: 10.0
#REALTIME  -s: 0.0
#ELEVANGLE-dg: 35.0
#AZIMANGLE-dg: 0.0
#TBEWIND  -cm: 0.000000
#TDEADLYR -cm: 0.030
#TACTYLR  -cm: 0.1
#COMMENT     : Converted by EDAX.APEX.V2.0 February 2020
##FILENAME       : \\naotvcsocc.coeit.osu.edu\CEMAS_Instrument\weber.1158\PhD\20240520\QuantResults\MineralStandards\Vrm\Area 2\Selected Area 1_1.spc
##AmpTime (usec) : 0.48
##FPGA Version   : 0
##RESO (MnKa)    : 128.8
##EDAX Detector  : Octane Elect Super
##Analyzer Type  : DPP4
##Tilt Angle     : 0.0
##TakeOff Angle  : 36.9
##Elements       : 6,7,8,9,11,12,13,14,15,16,17,19,20,22,24,25,26,27
#SPECTRUM    : Spectral Data Starts Here
0.00,        0.0
140.00,        293.0
280.00,        51880.0
420.00,        2946.0
560.00,        19718.0
700.00,        5417.0
840.00,        2219.0
980.00,        2537.0
1120.00,        1963.0
1260.00,        18942.0
1400.00,        2375.0
1540.00,        4763.0
1680.00,        7046.0
1820.00,        4587.0
1960.00,        2135.0
2100.00,        1448.0
2240.00,        1515.0
2380.00,        1041.0
2520.00,        931.0
2660.00,        830.0
2800.00,        770.0
2940.00,        823.0
3080.00,        733.0
3220.00,        971.0
3360.00,        2373.0
3500.00,        745.0
3640.00,        827.0
3780.00,        575.0
3920.00,        546.0
4060.00,        460.0
4200.00,        472.0
4340.00,        423.0
4480.00,        641.0
4620.00,        415.0
4760.00,        392.0
4900.00,        443.0
5040.00,        361.0
5180.00,        366.0
5320.00,        320.0
5460.00,        338.0
5600.00,        282.0
5740.00,        302.0
5880.00,        288.0
6020.00,        280.0
6160.00,        242.0
6300.00,        485.0
6440.00,        1228.0
6580.00,        314.0
6720.00,        267.0
6860.00,        258.0
7000.00,        316.0
7140.00,        247.0
7280.00,        205.0
7420.00,        205.0
7560.00,        187.0
7700.00,        163.0
7840.00,        186.0
7980.00,        187.0
8120.00,        162.0
8260.00,        166.0
8400.00,        138.0
8540.00,        111.0
8680.00,        137.0
8820.00,        139.0
8960.00,        117.0
9100.00,        110.0
9240.00,        109.0
9380.00,        112.0
9520.00,        125.0
9660.00,        92.0
9800.00,        108.0
9940.00,        103.0
10080.00,        84.0
10220.00,        90.0
10360.00,        97.0
10500.00,        73.0
10640.00,        81.0
10780.00,        78.0
10920.00,        57.0
11060.00,        68.0
11200.00,        66.0
11340.00,        47.0
11480.00,        40.0
11620.00,        43.0
11760.00,        50.0
11900.00,        55.0
12040.00,        55.0
12180.00,        39.0
12320.00,        47.0
12460.00,        45.0
12600.00,        41.0
12740.00,        43.0
12880.00,        36.0
13020.00,        25.0
13160.00,        33.0
13300.00,        27.0
13440.00,        28.0
13580.00,        12.0
13720.00,        21.0
13860.00,        15.0
14000.00,        15.0
14140.00,        14.0
14280.00,        14.0
14420.00,        15.0
14560.00,        12.0
14700.00,        5.0
14840.00,        3.0
14980.00,        4.0
15120.00,        3.0
15260.00,        1.0
15400.00,        2.0
15540.00,        0.0
15680.00,        2.0
15820.00,        0.0
15960.00,        1.0
16100.00,        1.0
16240.00,        0.0
16380.00,        2.0
16520.00,        1.0
16660.00,        0.0
16800.00,        1.0
16940.00,        1.0
17080.00,        2.0
17220.00,        0.0
17360.00,        1.0
17500.00,        1.0
17640.00,        0.0
17780.00,        1.0
17920.00,        1.0
18060.00,        0.0
18200.00,        0.0
18340.00,        0.0
18480.00,        1.0
18620.00,        0.0
18760.00,        0.0
18900.00,        0.0
19040.00,        0.0
19180.00,        0.0
19320.00,        0.0
19460.00,        1.0
19600.00,        0.0
19740.00,        0.0
19880.00,        1.0
20020.00,        2.0
20160.00,        0.0
20300.00,        0.0
20440.00,        0.0
20580.00,        0.0
20720.00,        0.0
20860.00,        0.0
21000.00,        0.0
21140.00,        0.0
21280.00,        0.0
21420.00,        0.0
21560.00,        0.0
21700.00,        0.0
21840.00,        0.0
21980.00,        0.0
22120.00,        0.0
22260.00,        1.0
22400.00,        0.0
22540.00,        0.0
22680.00,        0.0
22820.00,        0.0
22960.00,        0.0
23100.00,        1.0
23240.00,        0.0
23380.00,        0.0
23520.00,        0.0
23660.00,        0.0
23800.00,        0.0
23940.00,        0.0
24080.00,        0.0
24220.00,        0.0
24360.00,        0.0
24500.00,        0.0
24640.00,        0.0
24780.00,        0.0
24920.00,        0.0
25060.00,        0.0
25200.00,        0.0
25340.00,        0.0
25480.00,        0.0
25620.00,        0.0
25760.00,        0.0
25900.00,        0.0
26040.00,        0.0
26180.00,        0.0
26320.00,        0.0
26460.00,        0.0
26600.00,        0.0
26740.00,        0.0
26880.00,        0.0
27020.00,        0.0
27160.00,        0.0
27300.00,        0.0
27440.00,        0.0
27580.00,        0.0
27720.00,        0.0
27860.00,        0.0
28000.00,        0.0
28140.00,        0.0
28280.00,        0.0
28420.00,        0.0
28560.00,        0.0
28700.00,        0.0
28840.00,        0.0
28980.00,        0.0
29120.00,        0.0
29260.00,        0.0
29400.00,        0.0
29540.00,        0.0
29680.00,        0.0
29820.00,        0.0
29960.00,        0.0
30100.00,        0.0
30240.00,        0.0
30380.00,        0.0
30520.00,        0.0
30660.00,        0.0
30800.00,        0.0
30940.00,        0.0
31080.00,        0.0
31220.00,        0.0
31360.00,        0.0
31500.00,        0.0
31640.00,        0.0
31780.00,        0.0
31920.00,        0.0
32060.00,        0.0
32200.00,        0.0
32340.00,        0.0
32480.00,        0.0
32620.00,        0.0
32760.00,        0.0
32900.00,        0.0
33040.00,        0.0
33180.00,        0.0
33320.00,        0.0
33460.00,        0.0
33600.00,        0.0
33740.00,        0.0
33880.00,        0.0
34020.00,        0.0
34160.00,        0.0
34300.00,        0.0
34440.00,        0.0
34580.00,        0.0
34720.00,        0.0
34860.00,        0.0
35000.00,        0.0
35140.00,        0.0
35280.00,        0.0
35420.00,        0.0
35560.00,        0.0
35700.00,        0.0
35840.00,        0.0
35980.00,        0.0
36120.00,        0.0
36260.00,        0.0
36400.00,        0.0
36540.00,        0.0
36680.00,        0.0
36820.00,        0.0
36960.00,        0.0
37100.00,        0.0
37240.00,        0.0
37380.00,        0.0
37520.00,        0.0
37660.00,        0.0
37800.00,        0.0
37940.00,        0.0
38080.00,        0.0
38220.00,        0.0
38360.00,        0.0
38500.00,        0.0
38640.00,        0.0
38780.00,        0.0
38920.00,        0.0
39060.00,        0.0
39200.00,        0.0
39340.00,        0.0
39480.00,        0.0
39620.00,        0.0
39760.00,        0.0
39900.00,        0.0
40040.00,        0.0
40180.00,        0.0
40320.00,        0.0
40460.00,        0.0
40600.00,        0.0
40740.00,        0.0
40880.00,        0.0
40950.00,        0.0
#ENDOFDATA   :