Folder: eds-classification/MATLAB/Examples/example_spectra

Note: README.md
# EDS Classification for MATLAB
**Functions for working with SEM-EDS data in MATLAB, including different algorithms for performing mineral classification.**

This repository includes several functions designed to quickly classify minerals from data collected using a scanning electron microscope (SEM) with an energy dispersive spectrometry (EDS) detector. The <small>`weber_classification()`</small> algorithm is a novel machine learning classifier trained on 18 mineral standards with an validation accuracy exceeding 99%. In addition, three alternative classification algorithms have been trasncribed into viable MATLAB code from the literature to compare and help finalize the results. (See the **[online documentation](https://github.com/weber1158/eds-classification-for-matlab/blob/main/MATLAB/docs/DOCUMENTATION.md)** for the <small>`donarummo_classification()`</small> [1], <small>`kandler_classification()`</small> [2], and <small>`panta_classification()`</small> [3] functions for details). The Donarummo, Kandler, and Panta algorithms have also been transcribed into Julia code for those without a MATLAB license.

Moreover, this repository includes MATLAB functions for importing EDS x-ray spectral data (<small>`read_msa()`</small>) and visualizing the data (<small>`xray_plot()`</small>). Users may also import the metadata from SEM micrographs with the <small>`get_sem_metadata()`</small> function, and much more.

## Citation
Weber, Austin M. (2024) EDS Classification for MATLAB. V1.2.0 [Software]. Github. https://github.com/weber1158/eds-classification-for-matlab

For BibTeX:
```tex
@software{weber2024eds
   author = {Weber, Austin M.}, 
   title = {EDS Classification for MATLAB}, 
   year = 2024, 
   publisher = {GitHub}, 
   version = {1.2.0}, 
   url = {https://github.com/weber1158/eds-classification-for-matlab} 
}
```

## References
**[1]** Donarummo, J., Ram, M., & Stoermer, E. F. (2003). Possible deposit of soil dust from the 1930’s U.S. dust bowl identified in Greenland ice. Geophysical Research Letters, 30(6). https://doi.org/10.1029/2002GL016641

**[2]** Kandler, K., Lieke, K., Benker, N., Emmel, C., Küpper, M., Müller-Ebert, D., Ebert, M., Scheuvens, D., Schladitz, A., Schütz, L., & Weinbruch, S. (2011). Electron microscopy of particles collected at Praia, Cape Verde, during the Saharan Mineral Dust Experiment: Particle chemistry, shape, mixing state and complex refractive index. Tellus B, 63(4), 475–496. https://doi.org/10.1111/j.1600-0889.2011.00550.x

**[3]**  Panta, A., Kandler, K., Alastuey, A., González-Flórez, C., 
González-Romero, A., Klose, M., Querol, X., Reche, C., Yus-Díez, J., & Pérez García-Pando, C. (2023). Insights into the single-particle composition, size, mixing state, and aspect ratio of freshly emitted mineral dust from field measurements in the Moroccan Sahara using electron microscopy. Atmospheric Chemistry and Physics, 23(6), 3861–3885. https://doi.org/10.5194/acp-23-3861-2023

File: apatite.msa
#FORMAT      : EMSA/MAS SPECTRAL DATA FILE
#VERSION     : 1.0
#TITLE       : MineralStandards | Ap | Area 2 | Selected Area 1
#DATE        : 09-Jul-2024
#TIME        : 11:05
#OWNER       : EDAX APEX /ApexData
#NPOINTS     : 4096
#NCOLUMNS    : 1
#XUNITS      : Energy (EV)
#YUNITS      : Intensity
#DATATYPE    : XY
#XPERCHAN    : 10.000
#OFFSET      : 0.0
#CHOFFSET    : 0.0
#SIGNALTYPE  : EDS
#XLABEL      : X-RAY Energy
#YLABEL      : X-RAY Intensity
#BEAMKV   -kV: 15.0
#LIVETIME  -s: 10.0
#REALTIME  -s: 0.0
#ELEVANGLE-dg: 35.0
#AZIMANGLE-dg: 0.0
#TBEWIND  -cm: 0.000000
#TDEADLYR -cm: 0.030
#TACTYLR  -cm: 0.1
#COMMENT     : Converted by EDAX.APEX.V2.0 February 2020
##FILENAME       : \\naotvcsocc.coeit.osu.edu\CEMAS_Instrument\weber.1158\PhD\20240709\MineralStandards\Ap\Area 2\Selected Area 1_1.spc
##AmpTime (usec) : 0.96
##FPGA Version   : 0
##RESO (MnKa)    : 126.2
##EDAX Detector  : Octane Elect Super
##Analyzer Type  : DPP4
##Tilt Angle     : 0.0
##TakeOff Angle  : 36.8
##Elements       : 6,8,9,13,39,15,20
#SPECTRUM    : Spectral Data Starts Here
0.00,        0.0
140.00,        535.0
280.00,        9494.0
420.00,        1299.0
560.00,        7961.0
700.00,        2663.0
840.00,        1267.0
980.00,        1308.0
1120.00,        1433.0
1260.00,        1632.0
1400.00,        1552.0
1540.00,        1838.0
1680.00,        1723.0
1820.00,        1926.0
1960.00,        15250.0
2100.00,        5096.0
2240.00,        1340.0
2380.00,        1138.0
2520.00,        1440.0
2660.00,        1559.0
2800.00,        981.0
2940.00,        916.0
3080.00,        911.0
3220.00,        921.0
3360.00,        869.0
3500.00,        1049.0
3640.00,        21057.0
3780.00,        8841.0
3920.00,        1829.0
4060.00,        4710.0
4200.00,        1083.0
4340.00,        660.0
4480.00,        654.0
4620.00,        631.0
4760.00,        574.0
4900.00,        595.0
5040.00,        553.0
5180.00,        508.0
5320.00,        558.0
5460.00,        489.0
5600.00,        726.0
5740.00,        718.0
5880.00,        480.0
6020.00,        451.0
6160.00,        373.0
6300.00,        383.0
6440.00,        388.0
6580.00,        367.0
6720.00,        339.0
6860.00,        322.0
7000.00,        289.0
7140.00,        290.0
7280.00,        384.0
7420.00,        459.0
7560.00,        305.0
7700.00,        320.0
7840.00,        281.0
7980.00,        237.0
8120.00,        216.0
8260.00,        226.0
8400.00,        228.0
8540.00,        202.0
8680.00,        179.0
8820.00,        182.0
8960.00,        183.0
9100.00,        159.0
9240.00,        179.0
9380.00,        161.0
9520.00,        152.0
9660.00,        139.0
9800.00,        151.0
9940.00,        146.0
10080.00,        125.0
10220.00,        138.0
10360.00,        100.0
10500.00,        134.0
10640.00,        128.0
10780.00,        113.0
10920.00,        95.0
11060.00,        89.0
11200.00,        106.0
11340.00,        90.0
11480.00,        89.0
11620.00,        78.0
11760.00,        69.0
11900.00,        70.0
12040.00,        73.0
12180.00,        70.0
12320.00,        47.0
12460.00,        53.0
12600.00,        45.0
12740.00,        50.0
12880.00,        36.0
13020.00,        35.0
13160.00,        37.0
13300.00,        47.0
13440.00,        33.0
13580.00,        25.0
13720.00,        30.0
13860.00,        23.0
14000.00,        19.0
14140.00,        16.0
14280.00,        5.0
14420.00,        12.0
14560.00,        11.0
14700.00,        7.0
14840.00,        2.0
14980.00,        3.0
15120.00,        2.0
15260.00,        5.0
15400.00,        4.0
15540.00,        0.0
15680.00,        2.0
15820.00,        1.0
15960.00,        3.0
16100.00,        3.0
16240.00,        4.0
16380.00,        0.0
16520.00,        6.0
16660.00,        4.0
16800.00,        1.0
16940.00,        1.0
17080.00,        0.0
17220.00,        0.0
17360.00,        0.0
17500.00,        0.0
17640.00,        0.0
17780.00,        1.0
17920.00,        1.0
18060.00,        1.0
18200.00,        0.0
18340.00,        1.0
18480.00,        0.0
18620.00,        0.0
18760.00,        1.0
18900.00,        1.0
19040.00,        0.0
19180.00,        1.0
19320.00,        0.0
19460.00,        1.0
19600.00,        0.0
19740.00,        0.0
19880.00,        0.0
20020.00,        0.0
20160.00,        0.0
20300.00,        0.0
20440.00,        0.0
20580.00,        0.0
20720.00,        1.0
20860.00,        0.0
21000.00,        1.0
21140.00,        1.0
21280.00,        0.0
21420.00,        0.0
21560.00,        0.0
21700.00,        0.0
21840.00,        0.0
21980.00,        0.0
22120.00,        0.0
22260.00,        0.0
22400.00,        0.0
22540.00,        0.0
22680.00,        0.0
22820.00,        0.0
22960.00,        0.0
23100.00,        0.0
23240.00,        0.0
23380.00,        0.0
23520.00,        0.0
23660.00,        0.0
23800.00,        0.0
23940.00,        0.0
24080.00,        0.0
24220.00,        0.0
24360.00,        0.0
24500.00,        0.0
24640.00,        1.0
24780.00,        0.0
24920.00,        0.0
25060.00,        0.0
25200.00,        0.0
25340.00,        0.0
25480.00,        0.0
25620.00,        0.0
25760.00,        0.0
25900.00,        0.0
26040.00,        0.0
26180.00,        0.0
26320.00,        0.0
26460.00,        0.0
26600.00,        0.0
26740.00,        0.0
26880.00,        0.0
27020.00,        0.0
27160.00,        0.0
27300.00,        0.0
27440.00,        0.0
27580.00,        0.0
27720.00,        0.0
27860.00,        0.0
28000.00,        0.0
28140.00,        0.0
28280.00,        0.0
28420.00,        0.0
28560.00,        0.0
28700.00,        0.0
28840.00,        0.0
28980.00,        0.0
29120.00,        0.0
29260.00,        0.0
29400.00,        0.0
29540.00,        0.0
29680.00,        0.0
29820.00,        0.0
29960.00,        0.0
30100.00,        0.0
30240.00,        0.0
30380.00,        0.0
30520.00,        0.0
30660.00,        0.0
30800.00,        0.0
30940.00,        0.0
31080.00,        0.0
31220.00,        0.0
31360.00,        0.0
31500.00,        0.0
31640.00,        0.0
31780.00,        0.0
31920.00,        0.0
32060.00,        0.0
32200.00,        0.0
32340.00,        0.0
32480.00,        0.0
32620.00,        0.0
32760.00,        0.0
32900.00,        0.0
33040.00,        0.0
33180.00,        0.0
33320.00,        0.0
33460.00,        0.0
33600.00,        0.0
33740.00,        0.0
33880.00,        0.0
34020.00,        0.0
34160.00,        0.0
34300.00,        0.0
34440.00,        0.0
34580.00,        0.0
34720.00,        0.0
34860.00,        0.0
35000.00,        0.0
35140.00,        0.0
35280.00,        0.0
35420.00,        0.0
35560.00,        0.0
35700.00,        0.0
35840.00,        0.0
35980.00,        0.0
36120.00,        0.0
36260.00,        0.0
36400.00,        0.0
36540.00,        0.0
36680.00,        0.0
36820.00,        0.0
36960.00,        0.0
37100.00,        0.0
37240.00,        0.0
37380.00,        0.0
37520.00,        0.0
37660.00,        0.0
37800.00,        0.0
37940.00,        0.0
38080.00,        0.0
38220.00,        0.0
38360.00,        0.0
38500.00,        0.0
38640.00,        0.0
38780.00,        0.0
38920.00,        0.0
39060.00,        0.0
39200.00,        0.0
39340.00,        0.0
39480.00,        0.0
39620.00,        0.0
39760.00,        0.0
39900.00,        0.0
40040.00,        0.0
40180.00,        0.0
40320.00,        0.0
40460.00,        0.0
40600.00,        0.0
40740.00,        0.0
40880.00,        0.0
40950.00,        0.0
#ENDOFDATA   :

File: augite.msa
#FORMAT      : EMSA/MAS SPECTRAL DATA FILE
#VERSION     : 1.0
#TITLE       : MineralStandards | Aug | Area 2 | Selected Area 1
#DATE        : 16-Jul-2024
#TIME        : 10:40
#OWNER       : EDAX APEX /ApexData
#NPOINTS     : 4096
#NCOLUMNS    : 1
#XUNITS      : Energy (EV)
#YUNITS      : Intensity
#DATATYPE    : XY
#XPERCHAN    : 10.000
#OFFSET      : 0.0
#CHOFFSET    : 0.0
#SIGNALTYPE  : EDS
#XLABEL      : X-RAY Energy
#YLABEL      : X-RAY Intensity
#BEAMKV   -kV: 15.0
#LIVETIME  -s: 10.0
#REALTIME  -s: 0.0
#ELEVANGLE-dg: 35.0
#AZIMANGLE-dg: 0.0
#TBEWIND  -cm: 0.000000
#TDEADLYR -cm: 0.030
#TACTYLR  -cm: 0.1
#COMMENT     : Converted by EDAX.APEX.V2.0 February 2020
##FILENAME       : \\naotvcsocc.coeit.osu.edu\CEMAS_Instrument\weber.1158\PhD\20240716\MineralStandards\Aug\Area 2\Selected Area 1_1.spc
##AmpTime (usec) : 0.96
##FPGA Version   : 0
##RESO (MnKa)    : 126.2
##EDAX Detector  : Octane Elect Super
##Analyzer Type  : DPP4
##Tilt Angle     : 0.0
##TakeOff Angle  : 36.6
##Elements       : 8,12,13,14,20,22,26,27
#SPECTRUM    : Spectral Data Starts Here
0.00,        0.0
140.00,        578.0
280.00,        9572.0
420.00,        3481.0
560.00,        24808.0
700.00,        5685.0
840.00,        2048.0
980.00,        2514.0
1120.00,        2202.0
1260.00,        27605.0
1400.00,        2442.0
1540.00,        5035.0
1680.00,        14347.0
1820.00,        9161.0
1960.00,        1782.0
2100.00,        1317.0
2240.00,        3005.0
2380.00,        1166.0
2520.00,        1151.0
2660.00,        1071.0
2800.00,        1002.0
2940.00,        1304.0
3080.00,        995.0
3220.00,        1021.0
3360.00,        868.0
3500.00,        1404.0
3640.00,        8034.0
3780.00,        3811.0
3920.00,        1051.0
4060.00,        2120.0
4200.00,        1146.0
4340.00,        644.0
4480.00,        1168.0
4620.00,        583.0
4760.00,        531.0
4900.00,        736.0
5040.00,        536.0
5180.00,        537.0
5320.00,        571.0
5460.00,        656.0
5600.00,        448.0
5740.00,        446.0
5880.00,        461.0
6020.00,        358.0
6160.00,        347.0
6300.00,        675.0
6440.00,        2057.0
6580.00,        314.0
6720.00,        321.0
6860.00,        341.0
7000.00,        467.0
7140.00,        389.0
7280.00,        258.0
7420.00,        298.0
7560.00,        307.0
7700.00,        252.0
7840.00,        248.0
7980.00,        205.0
8120.00,        271.0
8260.00,        236.0
8400.00,        201.0
8540.00,        190.0
8680.00,        195.0
8820.00,        186.0
8960.00,        151.0
9100.00,        137.0
9240.00,        145.0
9380.00,        150.0
9520.00,        139.0
9660.00,        130.0
9800.00,        106.0
9940.00,        123.0
10080.00,        149.0
10220.00,        106.0
10360.00,        118.0
10500.00,        108.0
10640.00,        106.0
10780.00,        100.0
10920.00,        95.0
11060.00,        85.0
11200.00,        78.0
11340.00,        77.0
11480.00,        80.0
11620.00,        74.0
11760.00,        61.0
11900.00,        74.0
12040.00,        77.0
12180.00,        54.0
12320.00,        51.0
12460.00,        52.0
12600.00,        53.0
12740.00,        42.0
12880.00,        37.0
13020.00,        35.0
13160.00,        44.0
13300.00,        29.0
13440.00,        29.0
13580.00,        27.0
13720.00,        31.0
13860.00,        19.0
14000.00,        18.0
14140.00,        18.0
14280.00,        20.0
14420.00,        8.0
14560.00,        9.0
14700.00,        8.0
14840.00,        5.0
14980.00,        9.0
15120.00,        3.0
15260.00,        3.0
15400.00,        5.0
15540.00,        2.0
15680.00,        3.0
15820.00,        3.0
15960.00,        3.0
16100.00,        2.0
16240.00,        2.0
16380.00,        3.0
16520.00,        1.0
16660.00,        1.0
16800.00,        2.0
16940.00,        1.0
17080.00,        0.0
17220.00,        0.0
17360.00,        0.0
17500.00,        0.0
17640.00,        0.0
17780.00,        0.0
17920.00,        1.0
18060.00,        1.0
18200.00,        1.0
18340.00,        0.0
18480.00,        0.0
18620.00,        0.0
18760.00,        0.0
18900.00,        0.0
19040.00,        0.0
19180.00,        0.0
19320.00,        0.0
19460.00,        0.0
19600.00,        0.0
19740.00,        0.0
19880.00,        0.0
20020.00,        0.0
20160.00,        0.0
20300.00,        0.0
20440.00,        0.0
20580.00,        0.0
20720.00,        0.0
20860.00,        0.0
21000.00,        0.0
21140.00,        0.0
21280.00,        0.0
21420.00,        0.0
21560.00,        0.0
21700.00,        1.0
21840.00,        0.0
21980.00,        0.0
22120.00,        0.0
22260.00,        0.0
22400.00,        0.0
22540.00,        0.0
22680.00,        0.0
22820.00,        0.0
22960.00,        0.0
23100.00,        1.0
23240.00,        0.0
23380.00,        0.0
23520.00,        0.0
23660.00,        0.0
23800.00,        0.0
23940.00,        0.0
24080.00,        0.0
24220.00,        0.0
24360.00,        0.0
24500.00,        0.0
24640.00,        0.0
24780.00,        0.0
24920.00,        0.0
25060.00,        0.0
25200.00,        0.0
25340.00,        0.0
25480.00,        0.0
25620.00,        0.0
25760.00,        0.0
25900.00,        0.0
26040.00,        0.0
26180.00,        0.0
26320.00,        0.0
26460.00,        0.0
26600.00,        0.0
26740.00,        0.0
26880.00,        0.0
27020.00,        0.0
27160.00,        0.0
27300.00,        0.0
27440.00,        0.0
27580.00,        0.0
27720.00,        0.0
27860.00,        0.0
28000.00,        0.0
28140.00,        0.0
28280.00,        0.0
28420.00,        0.0
28560.00,        0.0
28700.00,        0.0
28840.00,        0.0
28980.00,        0.0
29120.00,        0.0
29260.00,        0.0
29400.00,        0.0
29540.00,        0.0
29680.00,        0.0
29820.00,        0.0
29960.00,        0.0
30100.00,        0.0
30240.00,        0.0
30380.00,        0.0
30520.00,        0.0
30660.00,        0.0
30800.00,        0.0
30940.00,        0.0
31080.00,        0.0
31220.00,        0.0
31360.00,        0.0
31500.00,        0.0
31640.00,        0.0
31780.00,        0.0
31920.00,        0.0
32060.00,        0.0
32200.00,        0.0
32340.00,        0.0
32480.00,        0.0
32620.00,        0.0
32760.00,        0.0
32900.00,        0.0
33040.00,        0.0
33180.00,        0.0
33320.00,        0.0
33460.00,        0.0
33600.00,        0.0
33740.00,        0.0
33880.00,        0.0
34020.00,        0.0
34160.00,        0.0
34300.00,        0.0
34440.00,        0.0
34580.00,        0.0
34720.00,        0.0
34860.00,        0.0
35000.00,        0.0
35140.00,        0.0
35280.00,        0.0
35420.00,        0.0
35560.00,        0.0
35700.00,        0.0
35840.00,        0.0
35980.00,        0.0
36120.00,        0.0
36260.00,        0.0
36400.00,        0.0
36540.00,        0.0
36680.00,        0.0
36820.00,        0.0
36960.00,        0.0
37100.00,        0.0
37240.00,        0.0
37380.00,        0.0
37520.00,        0.0
37660.00,        0.0
37800.00,        0.0
37940.00,        0.0
38080.00,        0.0
38220.00,        0.0
38360.00,        0.0
38500.00,        0.0
38640.00,        0.0
38780.00,        0.0
38920.00,        0.0
39060.00,        0.0
39200.00,        0.0
39340.00,        0.0
39480.00,        0.0
39620.00,        0.0
39760.00,        0.0
39900.00,        0.0
40040.00,        0.0
40180.00,        0.0
40320.00,        0.0
40460.00,        0.0
40600.00,        0.0
40740.00,        0.0
40880.00,        0.0
40950.00,        0.0
#ENDOFDATA   :

File: biotite.msa
#FORMAT      : EMSA/MAS SPECTRAL DATA FILE
#VERSION     : 1.0
#TITLE       : MineralStandards | Bt | Area 2 | Selected Area 1
#DATE        : 16-Jul-2024
#TIME        : 10:18
#OWNER       : EDAX APEX /weber.1158
#NPOINTS     : 4096
#NCOLUMNS    : 1
#XUNITS      : Energy (EV)
#YUNITS      : Intensity
#DATATYPE    : XY
#XPERCHAN    : 10.000
#OFFSET      : 0.0
#CHOFFSET    : 0.0
#SIGNALTYPE  : EDS
#XLABEL      : X-RAY Energy
#YLABEL      : X-RAY Intensity
#BEAMKV   -kV: 15.0
#LIVETIME  -s: 10.0
#REALTIME  -s: 0.0
#ELEVANGLE-dg: 35.0
#AZIMANGLE-dg: 0.0
#TBEWIND  -cm: 0.000000
#TDEADLYR -cm: 0.030
#TACTYLR  -cm: 0.1
#COMMENT     : Converted by EDAX.APEX.V2.0 February 2020
##FILENAME       : Q:\weber.1158\PhD\20240716\MineralStandards\Bt\Area 2\Selected Area 1_1.spc
##AmpTime (usec) : 0.96
##FPGA Version   : 0
##RESO (MnKa)    : 126.2
##EDAX Detector  : Octane Elect Super
##Analyzer Type  : DPP4
##Tilt Angle     : 0.0
##TakeOff Angle  : 36.8
##Elements       : 6,8,9,12,35,13,14,19,22,26,27
#SPECTRUM    : Spectral Data Starts Here
0.00,        0.0
140.00,        597.0
280.00,        17487.0
420.00,        2531.0
560.00,        18101.0
700.00,        9038.0
840.00,        1496.0
980.00,        1692.0
1120.00,        1678.0
1260.00,        22985.0
1400.00,        2232.0
1540.00,        6164.0
1680.00,        10183.0
1820.00,        6509.0
1960.00,        1547.0
2100.00,        1146.0
2240.00,        1984.0
2380.00,        1168.0
2520.00,        1097.0
2660.00,        1057.0
2800.00,        1013.0
2940.00,        1173.0
3080.00,        921.0
3220.00,        1855.0
3360.00,        7164.0
3500.00,        1207.0
3640.00,        1411.0
3780.00,        821.0
3920.00,        771.0
4060.00,        674.0
4200.00,        596.0
4340.00,        631.0
4480.00,        1428.0
4620.00,        667.0
4760.00,        528.0
4900.00,        669.0
5040.00,        690.0
5180.00,        470.0
5320.00,        446.0
5460.00,        432.0
5600.00,        402.0
5740.00,        402.0
5880.00,        571.0
6020.00,        366.0
6160.00,        370.0
6300.00,        1217.0
6440.00,        4211.0
6580.00,        390.0
6720.00,        359.0
6860.00,        465.0
7000.00,        681.0
7140.00,        535.0
7280.00,        262.0
7420.00,        250.0
7560.00,        284.0
7700.00,        277.0
7840.00,        248.0
7980.00,        247.0
8120.00,        287.0
8260.00,        223.0
8400.00,        207.0
8540.00,        195.0
8680.00,        215.0
8820.00,        202.0
8960.00,        170.0
9100.00,        164.0
9240.00,        142.0
9380.00,        165.0
9520.00,        165.0
9660.00,        165.0
9800.00,        142.0
9940.00,        135.0
10080.00,        117.0
10220.00,        109.0
10360.00,        112.0
10500.00,        112.0
10640.00,        101.0
10780.00,        113.0
10920.00,        97.0
11060.00,        108.0
11200.00,        93.0
11340.00,        89.0
11480.00,        80.0
11620.00,        65.0
11760.00,        73.0
11900.00,        83.0
12040.00,        64.0
12180.00,        61.0
12320.00,        52.0
12460.00,        45.0
12600.00,        50.0
12740.00,        40.0
12880.00,        51.0
13020.00,        34.0
13160.00,        38.0
13300.00,        40.0
13440.00,        37.0
13580.00,        25.0
13720.00,        28.0
13860.00,        19.0
14000.00,        17.0
14140.00,        21.0
14280.00,        14.0
14420.00,        13.0
14560.00,        5.0
14700.00,        8.0
14840.00,        2.0
14980.00,        3.0
15120.00,        3.0
15260.00,        3.0
15400.00,        3.0
15540.00,        0.0
15680.00,        1.0
15820.00,        3.0
15960.00,        5.0
16100.00,        1.0
16240.00,        0.0
16380.00,        2.0
16520.00,        3.0
16660.00,        1.0
16800.00,        1.0
16940.00,        0.0
17080.00,        1.0
17220.00,        0.0
17360.00,        1.0
17500.00,        0.0
17640.00,        0.0
17780.00,        2.0
17920.00,        1.0
18060.00,        1.0
18200.00,        0.0
18340.00,        2.0
18480.00,        0.0
18620.00,        1.0
18760.00,        0.0
18900.00,        0.0
19040.00,        0.0
19180.00,        0.0
19320.00,        0.0
19460.00,        0.0
19600.00,        0.0
19740.00,        0.0
19880.00,        0.0
20020.00,        0.0
20160.00,        0.0
20300.00,        0.0
20440.00,        0.0
20580.00,        0.0
20720.00,        0.0
20860.00,        0.0
21000.00,        0.0
21140.00,        0.0
21280.00,        0.0
21420.00,        0.0
21560.00,        0.0
21700.00,        0.0
21840.00,        0.0
21980.00,        0.0
22120.00,        0.0
22260.00,        0.0
22400.00,        0.0
22540.00,        0.0
22680.00,        0.0
22820.00,        0.0
22960.00,        0.0
23100.00,        0.0
23240.00,        0.0
23380.00,        0.0
23520.00,        0.0
23660.00,        0.0
23800.00,        0.0
23940.00,        0.0
24080.00,        0.0
24220.00,        0.0
24360.00,        0.0
24500.00,        0.0
24640.00,        0.0
24780.00,        0.0
24920.00,        0.0
25060.00,        0.0
25200.00,        0.0
25340.00,        0.0
25480.00,        0.0
25620.00,        0.0
25760.00,        0.0
25900.00,        0.0
26040.00,        0.0
26180.00,        0.0
26320.00,        0.0
26460.00,        0.0
26600.00,        0.0
26740.00,        0.0
26880.00,        0.0
27020.00,        0.0
27160.00,        0.0
27300.00,        0.0
27440.00,        0.0
27580.00,        0.0
27720.00,        0.0
27860.00,        0.0
28000.00,        0.0
28140.00,        0.0
28280.00,        0.0
28420.00,        0.0
28560.00,        0.0
28700.00,        0.0
28840.00,        0.0
28980.00,        0.0
29120.00,        0.0
29260.00,        0.0
29400.00,        0.0
29540.00,        0.0
29680.00,        0.0
29820.00,        0.0
29960.00,        0.0
30100.00,        0.0
30240.00,        0.0
30380.00,        0.0
30520.00,        0.0
30660.00,        0.0
30800.00,        0.0
30940.00,        0.0
31080.00,        0.0
31220.00,        0.0
31360.00,        0.0
31500.00,        0.0
31640.00,        0.0
31780.00,        0.0
31920.00,        0.0
32060.00,        0.0
32200.00,        0.0
32340.00,        0.0
32480.00,        0.0
32620.00,        0.0
32760.00,        0.0
32900.00,        0.0
33040.00,        0.0
33180.00,        0.0
33320.00,        0.0
33460.00,        0.0
33600.00,        0.0
33740.00,        0.0
33880.00,        0.0
34020.00,        0.0
34160.00,        0.0
34300.00,        0.0
34440.00,        0.0
34580.00,        0.0
34720.00,        0.0
34860.00,        0.0
35000.00,        0.0
35140.00,        0.0
35280.00,        0.0
35420.00,        0.0
35560.00,        0.0
35700.00,        0.0
35840.00,        0.0
35980.00,        0.0
36120.00,        0.0
36260.00,        0.0
36400.00,        0.0
36540.00,        0.0
36680.00,        0.0
36820.00,        0.0
36960.00,        0.0
37100.00,        0.0
37240.00,        0.0
37380.00,        0.0
37520.00,        0.0
37660.00,        0.0
37800.00,        0.0
37940.00,        0.0
38080.00,        0.0
38220.00,        0.0
38360.00,        0.0
38500.00,        0.0
38640.00,        0.0
38780.00,        0.0
38920.00,        0.0
39060.00,        0.0
39200.00,        0.0
39340.00,        0.0
39480.00,        0.0
39620.00,        0.0
39760.00,        0.0
39900.00,        0.0
40040.00,        0.0
40180.00,        0.0
40320.00,        0.0
40460.00,        0.0
40600.00,        0.0
40740.00,        0.0
40880.00,        0.0
40950.00,        0.0
#ENDOFDATA   :